Folder: pyGAPS-python3.7-template/convert_PP0_to_alpha-s/carbon

Note: convert_PP0_to_alpha-s/carbon/memo.txt
CB = Carbon Black (NGCB = Non-Graphitized Carbon Black)
GCB = Graphitized Carbon Black

Q. How to convert from P/P0 to alpha-s plot ?
A. Linear approximation is performed between two points near the actual P/P0.

Q. How to calculate "slope" in alpha-s plot ?
A. The "slope" in the alpha-s plot is obtained by connecting the origin and the valley between the two "swings" with a straight line. As an aside, in a carbon system using N2 gas, alpha-s = 0.5 corresponds to single-layer adsorption.

Q. Should I use CB (NGCB) or GCB ? 
A. Local crystallinity in the pores may be improved in samples treated with activated carbon at a high temperature of 1000 degrees or higher, so it is necessary to consider using GCB instead of CB. 

Q. What are the characteristics of "Black Pearl (BP) 280" ? 
A. see https://www.fetc.com.tw/upload/files/BP_280.pdf
  other ref.: Datasheet-BLACK-PEARLS-280pdf.pdf
  ----------------------------------------------------
  PROPERTY: TYPICAL VALUES; TEST METHOD
  Iodine number (mg/g): 43 ;ASTM D-1510
  OAN (cc/100g): 121 ;ASTM D-2414
  Tint (%): 60 ;ASTM D-3265
  325 Mesh residue (PPM): <200 ;ASTM D-1514
  Density @ 23 ‹C (kg/m3): 365 ;ASTM D-1513
  The data in the table above are typical test values intended as guidance only; they are not product specifications. Product specifications are available upon request from your Cabot  representative.
  ----------------------------------------------------

Q. What are the characteristics of "Carbopack F" ? 
A. see http://carbon.org.ua/sorbent-selection-guide
  HydrophobU: GCB-A
  https://gcms.cz/labrulez-bucket-strapi-h3hsga3/application::paper.paper/t406044.pdf
  Relative Analyte Size: >C20
  Analyte size relative to n-Alkanes. Consider all atoms, not just Carbon. For example, even  though 1,2-Dichloroethane is a C2, the two Chlorine atoms give it a relative size between  C4 and C5.
  related ref.: https://www.jstage.jst.go.jp/article/jec1991/15/2/15_2_247/_pdf 
  https://www2.st.tokushima-u.ac.jp/News/st_Innovators-Tomorrow/Introd_J/CHEM/dataJ/horikawa_j.pdf

Note: convert_PP0_to_alpha-s/carbon/OGA_Ar_77K_convert_data.txt
# Ar adsorption data for graphite (OGA) sample at 77 K
# K. Miura et al., Adsorption (2007) 13: 139-147.: DOI 10.1007/s10450-007-9015-7
# Vm=1.42[cm3/g], C-value=653, S=5.27[m2/g]
# relative_pressure_X, V[cm3(STP)/g], theta
1.19E-03, 0.545, 0.3838
4.31E-03, 1.1235, 0.7912
1.50E-02, 1.2831, 0.9036
2.92E-02, 1.3612, 0.9586
4.85E-02, 1.4571, 1.0261
7.10E-02, 1.5123, 1.065
0.1009, 1.5752, 1.1093
0.1369, 1.6367, 1.1526
0.1766, 1.7052, 1.2008
0.2117, 1.7745, 1.2496
0.2511, 1.8685, 1.3158
0.3053, 2.0453, 1.4404
0.3489, 2.3261, 1.6381
0.4008, 2.7684, 1.9496
0.4565, 3.0248, 2.1301
0.5097, 3.2282, 2.2734
0.5627, 3.4524, 2.4313
0.6059, 3.7043, 2.6087
0.6624, 4.2089, 2.964
0.7159, 4.6465, 3.2722
0.7651, 5.0907, 3.585
0.81, 5.6189, 3.957
0.848, 6.3881, 4.4987
0.8664, 7.1563, 5.0396
0.9163, 8.921, 6.2824
0.9487, 12.151, 8.557
0.8712, 5.3473, 5.0446
0.9075, 6.2346, 5.8817
0.9524, 9.5768, 9.0347

Note: convert_PP0_to_alpha-s/carbon/OGA_N2_77K_convert_data.txt
# N2 adsorption data for graphite (OGA) sample at 77 K
# K. Miura et al., Adsorption (2007) 13: 139-147.: DOI 10.1007/s10450-007-9015-7
# Vm=1.30[cm3/g], C-value=849, S=5.66[m2/g]
# relative_pressure_X, V[cm3(STP)/g], theta
3.18E-04, 0.5751, 0.4424
8.44E-03, 1.1729, 0.9022
1.89E-02, 1.2575, 0.9673
3.45E-02, 1.297, 0.9977
4.48E-02, 1.3195, 1.015
6.10E-02, 1.3534, 1.0411
7.62E-02, 1.3771, 1.0593
9.10E-02, 1.4089, 1.0838
0.1151, 1.4527, 1.1175
0.1401, 1.5008, 1.1545
0.1552, 1.5302, 1.1771
0.1703, 1.564, 1.2031
0.1898, 1.6327, 1.2559
0.2098, 1.6927, 1.3021
0.2296, 1.7706, 1.362
0.2589, 1.8838, 1.4491
0.2887, 2.0254, 1.558
0.3091, 2.1184, 1.6295
0.3386, 2.2538, 1.7337
0.3593, 2.3391, 1.7993
0.3917, 2.4621, 1.8939
0.4123, 2.5325, 1.9481
0.4373, 2.6132, 2.0102
0.4621, 2.7014, 2.078
0.4873, 2.7813, 2.1395
0.5121, 2.8635, 2.2027
0.5415, 2.9631, 2.2793
0.562, 3.0482, 2.3448
0.5867, 3.1431, 2.4176
0.6115, 3.2592, 2.5071
0.6413, 3.4144, 2.6265
0.6668, 3.5601, 2.7385
0.6913, 3.7152, 2.8578
0.7161, 3.8901, 2.9924
0.7408, 4.0774, 3.1365
0.7654, 4.2899, 3.2999
0.7899, 4.5215, 3.4781
0.8143, 4.7913, 3.6856
0.8423, 5.1818, 3.986
0.8627, 5.5536, 4.272
0.9009, 6.5602, 5.0463
0.9468, 9.2519, 7.1168
0.9537, 10.121, 7.7854

Note: convert_PP0_to_alpha-s/carbon/OGB_Ar_77K_convert_data.txt
# Ar adsorption data for graphite (OGB) sample at 77 K
# K. Miura et al., Adsorption (2007) 13: 139-147.: DOI 10.1007/s10450-007-9015-7
# Vm=1.06[cm3/g], C-value=443, S=3.91[m2/g]
# relative_pressure_X, V[cm3(STP)/g], theta
2.07E-03, 0.6526, 0.6157
7.56E-03, 0.8584, 0.8098
1.71E-02, 0.9288, 0.8762
2.81E-02, 0.9708, 0.9158
4.70E-02, 1.0471, 0.9878
6.65E-02, 1.0949, 1.0329
8.21E-02, 1.1244, 1.0608
9.73E-02, 1.1532, 1.0879
0.1274, 1.1923, 1.1248
0.1522, 1.2328, 1.163
0.1821, 1.275, 1.2028
0.2212, 1.3369, 1.2612
0.2702, 1.4319, 1.3508
0.301, 1.5104, 1.4249
0.3456, 1.7292, 1.6313
0.3675, 1.8922, 1.7851
0.4029, 2.0931, 1.9746
0.4495, 2.2415, 2.1146
0.5004, 2.3767, 2.2422
0.5538, 2.5404, 2.3966
0.599, 2.7183, 2.5644
0.6554, 3.0923, 2.9173
0.7076, 3.4078, 3.2149
0.7579, 3.7164, 3.506
0.8059, 4.0776, 3.8468
0.8462, 4.7716, 4.5015

Note: convert_PP0_to_alpha-s/carbon/OGB_N2_77K_convert_data.txt
# N2 adsorption data for graphite (OGB) sample at 77 K
# K. Miura et al., Adsorption (2007) 13: 139-147.: DOI 10.1007/s10450-007-9015-7
# Vm=0.90[cm3/g], C-value=2242, S=3.94[m2/g]
# relative_pressure_X, V[cm3(STP)/g], theta
1.50E-03, 0.7262, 0.8069
8.09E-03, 0.8322, 0.9247
1.84E-02, 0.9052, 1.0058
3.39E-02, 0.9224, 1.0249
4.40E-02, 0.9326, 1.0362
5.97E-02, 0.9608, 1.0676
7.48E-02, 0.9713, 1.0792
8.98E-02, 0.9919, 1.1021
0.1124, 1.0187, 1.1319
0.1373, 1.0426, 1.1584
0.1525, 1.0658, 1.1842
0.1674, 1.0824, 1.2027
0.1873, 1.1253, 1.2503
0.2072, 1.1702, 1.3002
0.2273, 1.2207, 1.3563
0.2569, 1.303, 1.4478
0.2867, 1.3975, 1.5528
0.307, 1.4626, 1.6251
0.3368, 1.5556, 1.7284
0.3574, 1.6165, 1.7961
0.3882, 1.693, 1.8811
0.4088, 1.7454, 1.9393
0.4337, 1.799, 1.9989
0.4589, 1.8548, 2.0609
0.4838, 1.8964, 2.1071
0.5087, 1.9584, 2.176
0.5384, 2.0249, 2.2499
0.5588, 2.0812, 2.3124
0.5836, 2.1404, 2.3782
0.6089, 2.2179, 2.4643
0.6432, 2.3344, 2.5938
0.6688, 2.4559, 2.7288
0.6943, 2.5676, 2.8529
0.7188, 2.685, 2.9833
0.7435, 2.814, 3.1267
0.7688, 2.9692, 3.2991
0.7935, 3.1435, 3.4928
0.8177, 3.3297, 3.6997
0.8478, 3.618, 4.02
0.8666, 3.8753, 4.3059
0.9099, 4.7647, 5.2941
0.9592, 7.6331, 8.4812

Note: README.md
# pyGAPS-python3.7-template

File: OGB_Ar_77K_reference_data.txt
# graphite (OGB),  Ar, 77 K, data, t
# K. Miura et al., Adsorption (2007) 13: 139-147.: DOI 10.1007/s10450-007-9015-7
# Vm=V(theta=1) = 1.06 [cm3/g], C-value = 443, S = 3.91 [m2/g]
# V(alpha-s=1) = V(P/P0=0.4) = V0.4 = 2.076642 [cm3/g]
# S(alpha-s)[m2/g] = slope[cm3(STP)/g] * 3.91/2.076642 = slope[cm3(STP)/g] * 1.882847
# relative_pressure_X, V[cm3(STP)/g], theta, alpha-s, t[nm]
2.07E-03, 0.6526, 0.6157, 0.314257, 0.2068752
7.56E-03, 0.8584, 0.8098, 0.41336, 0.2720928
1.71E-02, 0.9288, 0.8762, 0.447261, 0.2944032
2.81E-02, 0.9708, 0.9158, 0.467485, 0.3077088
4.70E-02, 1.0471, 0.9878, 0.504227, 0.3319008
6.65E-02, 1.0949, 1.0329, 0.527245, 0.3470544
8.21E-02, 1.1244, 1.0608, 0.541451, 0.3564288
9.73E-02, 1.1532, 1.0879, 0.55532, 0.3655344
1.27E-01, 1.1923, 1.1248, 0.574148, 0.3779328
1.52E-01, 1.2328, 1.163, 0.593651, 0.390768
0.1821, 1.275, 1.2028, 0.613972, 0.4041408
0.2212, 1.3369, 1.2612, 0.64378, 0.4237632
0.2702, 1.4319, 1.3508, 0.689527, 0.4538688
0.301, 1.5104, 1.4249, 0.727328, 0.4787664
0.3456, 1.7292, 1.6313, 0.83269, 0.5481168
0.3675, 1.8922, 1.7851, 0.911183, 0.5997936
0.4029, 2.0931, 1.9746, 1.00793, 0.6634656
0.4495, 2.2415, 2.1146, 1.07939, 0.7105056
0.5004, 2.3767, 2.2422, 1.14449, 0.7533792
0.5538, 2.5404, 2.3966, 1.22332, 0.8052576
0.599, 2.7183, 2.5644, 1.30899, 0.8616384
0.6554, 3.0923, 2.9173, 1.48909, 0.9802128
0.7076, 3.4078, 3.2149, 1.64101, 1.08021
0.7579, 3.7164, 3.506, 1.78962, 1.178016
0.8059, 4.0776, 3.8468, 1.96355, 1.29252
0.8462, 4.7716, 4.5015, 2.29775, 1.512504
0.5415, 2.9631, 2.2793, 1.42687, 0.7658448
0.562, 3.0482, 2.3448, 1.46785, 0.7878528
0.5867, 3.1431, 2.4176, 1.51355, 0.8123136
0.6115, 3.2592, 2.5071, 1.56946, 0.8423856
0.6413, 3.4144, 2.6265, 1.64419, 0.882504
0.6668, 3.5601, 2.7385, 1.71435, 0.920136
0.6913, 3.7152, 2.8578, 1.78904, 0.9602208
0.7161, 3.8901, 2.9924, 1.87326, 1.00545
0.7408, 4.0774, 3.1365, 1.96346, 1.053864
0.7654, 4.2899, 3.2999, 2.06579, 1.10877
0.7899, 4.5215, 3.4781, 2.17731, 1.16864
0.8143, 4.7913, 3.6856, 2.30723, 1.23836
0.8423, 5.1818, 3.986, 2.49528, 1.339296
0.8627, 5.5536, 4.272, 2.67432, 1.435392
0.9009, 6.5602, 5.0463, 3.15904, 1.69556
0.9468, 9.2519, 7.1168, 4.45522, 2.39124
0.9537, 10.121, 7.7854, 4.87373, 2.61589
0.9384, 15.017, 5.3064, 7.23139, 1.78295
0.9551, 17.859, 6.3106, 8.59994, 2.12036