Folder: pyGAPS-python3.7-template/convert_PP0_to_alpha-s/carbon_additional_data

Note: README.md
# pyGAPS-python3.7-template

File: Carbopack_F_Ar_77K_convert_data.txt
# Carbopack F Graphitized Carbon Black, Ar, 77 K
# L. Gardner et al., J. Phys. Chem. B 105 (2001).
# V(alpha-s=1) = V(P/P0=0.4) = V0.4 = 3.173 [cm3(STP)/g], S(BET) = 5.88 [m2/g]
# S(alpha-s)[m2/g] = slope[cm3(STP)/g] * 5.88/3.173 = slope[cm3(STP)/g] * 1.853136
# [pyGAPS] BET surface area: a = 6 m2/g, The BET constant is: C = 796, Amount for a monolayer: n = 8e-05 mol/g
#   Amount for a monolayer: n = 8e-05 / (1/1000/22.414) = 8e-05 / 4.461e-5 = 1.79332 [cm3(STP)/g]
# graphitized carbon black (Carbopack F)
# P/P0, alpha-s, V[cm3(STP)/g], t[nm]
5.85E-05, 6.08E-03, 1.93E-02, 3.61E-03
1.16E-04, 0.0122, 3.87E-02, 7.25E-03
1.70E-04, 0.0184, 5.84E-02, 1.09E-02
2.19E-04, 0.0245, 7.77E-02, 1.46E-02
2.63E-04, 0.0307, 9.74E-02, 1.83E-02
3.04E-04, 0.0368, 1.17E-01, 2.19E-02
3.41E-04, 0.043, 1.36E-01, 2.56E-02
3.75E-04, 0.0492, 1.56E-01, 2.92E-02
4.23E-04, 0.059, 1.87E-01, 3.51E-02
4.66E-04, 0.0688, 2.18E-01, 4.09E-02
5.04E-04, 0.0787, 2.50E-01, 4.68E-02
5.39E-04, 0.0885, 2.81E-01, 5.26E-02
5.70E-04, 0.0984, 3.12E-01, 5.85E-02
5.98E-04, 0.108, 3.43E-01, 6.42E-02
6.30E-04, 0.118, 3.74E-01, 7.02E-02
6.54E-04, 0.128, 4.06E-01, 7.61E-02
6.77E-04, 0.138, 4.38E-01, 8.20E-02
6.98E-04, 0.148, 4.70E-01, 8.80E-02
7.19E-04, 0.158, 5.01E-01, 9.39E-02
7.39E-04, 0.168, 5.33E-01, 9.99E-02
7.58E-04, 0.177, 5.62E-01, 1.05E-01
7.77E-04, 0.187, 5.93E-01, 1.11E-01
7.96E-04, 0.197, 6.25E-01, 1.17E-01
8.14E-04, 0.207, 6.57E-01, 1.23E-01
8.33E-04, 0.217, 6.89E-01, 1.29E-01
8.52E-04, 0.227, 7.20E-01, 1.35E-01
8.72E-04, 0.237, 7.52E-01, 1.41E-01
8.92E-04, 0.247, 7.84E-01, 1.47E-01
9.12E-04, 0.257, 8.15E-01, 1.53E-01
9.34E-04, 0.267, 8.47E-01, 1.59E-01
9.56E-04, 0.276, 8.76E-01, 1.64E-01
9.81E-04, 0.286, 9.07E-01, 1.70E-01
1.01E-03, 0.296, 9.39E-01, 1.76E-01
1.04E-03, 0.306, 9.71E-01, 1.82E-01
1.07E-03, 0.316, 1.00E+00, 1.88E-01
1.10E-03, 0.326, 1.03E+00, 1.94E-01
1.14E-03, 0.336, 1.07E+00, 2.00E-01
1.18E-03, 0.345, 1.09E+00, 2.05E-01
1.23E-03, 0.355, 1.13E+00, 2.11E-01
1.29E-03, 0.365, 1.16E+00, 2.17E-01
1.35E-03, 0.375, 1.19E+00, 2.23E-01
1.42E-03, 0.384, 1.22E+00, 2.28E-01
1.51E-03, 0.394, 1.25E+00, 2.34E-01
1.62E-03, 0.404, 1.28E+00, 2.40E-01
1.75E-03, 0.413, 1.31E+00, 2.46E-01
1.91E-03, 0.423, 1.34E+00, 2.51E-01
2.11E-03, 0.432, 1.37E+00, 2.57E-01
2.37E-03, 0.441, 1.40E+00, 2.62E-01
2.69E-03, 0.45, 1.43E+00, 2.68E-01
3.11E-03, 0.459, 1.46E+00, 2.73E-01
3.65E-03, 0.467, 1.48E+00, 2.78E-01
4.32E-03, 0.475, 1.51E+00, 2.82E-01
5.16E-03, 0.482, 1.53E+00, 2.87E-01
6.19E-03, 0.489, 1.55E+00, 2.91E-01
7.57E-03, 0.496, 1.57E+00, 2.95E-01
9.22E-03, 0.503, 1.60E+00, 2.99E-01
0.0111, 0.508, 1.61E+00, 3.02E-01
0.0123, 0.511, 1.62E+00, 3.04E-01
0.0126, 0.512, 1.62E+00, 3.04E-01
0.0151, 0.517, 1.64E+00, 3.07E-01
0.0178, 0.522, 1.66E+00, 3.10E-01
0.0202, 0.526, 1.67E+00, 3.13E-01
0.0215, 0.528, 1.68E+00, 3.14E-01
0.0228, 0.53, 1.68E+00, 3.15E-01
0.0241, 0.532, 1.69E+00, 3.16E-01
0.0247, 0.533, 1.69E+00, 3.17E-01
0.0254, 0.534, 1.69E+00, 3.17E-01
0.0259, 0.535, 1.70E+00, 3.18E-01
0.0276, 0.537, 1.70E+00, 3.19E-01
0.0283, 0.538, 1.71E+00, 3.20E-01
0.0301, 0.541, 1.72E+00, 3.22E-01
0.0309, 0.542, 1.72E+00, 3.22E-01
0.0328, 0.546, 1.73E+00, 3.25E-01
0.0336, 0.547, 1.74E+00, 3.25E-01
0.0354, 0.55, 1.75E+00, 3.27E-01
0.0361, 0.551, 1.75E+00, 3.28E-01
0.0377, 0.554, 1.76E+00, 3.29E-01
0.0384, 0.556, 1.76E+00, 3.31E-01
0.0403, 0.559, 1.77E+00, 3.32E-01
0.0428, 0.563, 1.79E+00, 3.35E-01
0.0454, 0.567, 1.80E+00, 3.37E-01
0.0503, 0.572, 1.81E+00, 3.40E-01
0.0601, 0.579, 1.84E+00, 3.44E-01
0.0708, 0.585, 1.86E+00, 3.48E-01
0.0809, 0.589, 1.87E+00, 3.50E-01
0.091, 0.594, 1.88E+00, 3.53E-01
0.101, 0.598, 1.90E+00, 3.56E-01
0.111, 0.602, 1.91E+00, 3.58E-01
0.121, 0.605, 1.92E+00, 3.60E-01
0.131, 0.609, 1.93E+00, 3.62E-01
0.141, 0.613, 1.95E+00, 3.64E-01
0.151, 0.617, 1.96E+00, 3.67E-01
0.161, 0.621, 1.97E+00, 3.69E-01
0.171, 0.625, 1.98E+00, 3.72E-01
0.181, 0.629, 2.00E+00, 3.74E-01
0.191, 0.634, 2.01E+00, 3.77E-01
0.201, 0.639, 2.03E+00, 3.80E-01
0.211, 0.644, 2.04E+00, 3.83E-01
0.221, 0.649, 2.06E+00, 3.86E-01
0.231, 0.655, 2.08E+00, 3.89E-01
0.241, 0.661, 2.10E+00, 3.93E-01
0.251, 0.667, 2.12E+00, 3.97E-01
0.26, 0.674, 2.14E+00, 4.01E-01
0.27, 0.682, 2.16E+00, 4.05E-01
0.28, 0.69, 2.19E+00, 4.10E-01
0.289, 0.7, 2.22E+00, 4.16E-01
0.299, 0.711, 2.26E+00, 4.23E-01
0.308, 0.724, 2.30E+00, 4.30E-01
0.318, 0.738, 2.34E+00, 4.39E-01
0.327, 0.755, 2.40E+00, 4.49E-01
0.336, 0.776, 2.46E+00, 4.61E-01
0.349, 0.812, 2.58E+00, 4.83E-01
0.36, 0.852, 2.70E+00, 5.07E-01
0.371, 0.895, 2.84E+00, 5.32E-01
0.381, 0.936, 2.97E+00, 5.56E-01
0.39, 0.97, 3.08E+00, 5.77E-01
0.4, 1, 3.17E+00, 5.94E-01
0.41, 1.03, 3.27E+00, 6.12E-01
0.42, 1.05, 3.33E+00, 6.24E-01
0.43, 1.07, 3.40E+00, 6.36E-01
0.44, 1.09, 3.46E+00, 6.48E-01
0.45, 1.1, 3.49E+00, 6.54E-01
0.46, 1.12, 3.55E+00, 6.66E-01
0.47, 1.13, 3.59E+00, 6.72E-01
0.48, 1.14, 3.62E+00, 6.78E-01
0.49, 1.15, 3.65E+00, 6.84E-01
0.5, 1.17, 3.71E+00, 6.96E-01
0.51, 1.18, 3.74E+00, 7.02E-01
0.52, 1.19, 3.78E+00, 7.07E-01
0.53, 1.2, 3.81E+00, 7.13E-01
0.54, 1.21, 3.84E+00, 7.19E-01
0.55, 1.22, 3.87E+00, 7.25E-01
0.56, 1.24, 3.93E+00, 7.37E-01
0.57, 1.25, 3.97E+00, 7.43E-01
0.579, 1.26, 4.00E+00, 7.49E-01
0.59, 1.28, 4.06E+00, 7.61E-01
0.599, 1.3, 4.12E+00, 7.73E-01
0.61, 1.32, 4.19E+00, 7.85E-01
0.62, 1.34, 4.25E+00, 7.97E-01
0.63, 1.36, 4.32E+00, 8.09E-01
0.64, 1.39, 4.41E+00, 8.26E-01
0.65, 1.42, 4.51E+00, 8.44E-01
0.66, 1.44, 4.57E+00, 8.56E-01
0.67, 1.47, 4.66E+00, 8.74E-01
0.68, 1.5, 4.76E+00, 8.92E-01
0.69, 1.53, 4.85E+00, 9.10E-01
0.7, 1.55, 4.92E+00, 9.21E-01
0.71, 1.58, 5.01E+00, 9.39E-01
0.72, 1.6, 5.08E+00, 9.51E-01
0.728, 1.62, 5.14E+00, 9.63E-01
0.741, 1.64, 5.20E+00, 9.75E-01
0.75, 1.67, 5.30E+00, 9.93E-01
0.76, 1.69, 5.36E+00, 1.00E+00
0.77, 1.71, 5.43E+00, 1.02E+00
0.78, 1.73, 5.49E+00, 1.03E+00
0.79, 1.75, 5.55E+00, 1.04E+00
0.8, 1.77, 5.62E+00, 1.05E+00
0.81, 1.79, 5.68E+00, 1.06E+00
0.819, 1.82, 5.77E+00, 1.08E+00
0.829, 1.85, 5.87E+00, 1.10E+00
0.839, 1.88, 5.97E+00, 1.12E+00
0.848, 1.92, 6.09E+00, 1.14E+00
0.854, 1.96, 6.22E+00, 1.17E+00
0.859, 2.02, 6.41E+00, 1.20E+00
0.865, 2.11, 6.70E+00, 1.25E+00
0.872, 2.18, 6.92E+00, 1.30E+00
0.9, 2.34, 7.42E+00, 1.39E+00
0.93, 2.52, 8.00E+00, 1.50E+00
0.937, 2.59, 8.22E+00, 1.54E+00
0.947, 2.72, 8.63E+00, 1.62E+00
0.956, 2.93, 9.30E+00, 1.74E+00
0.97, 3.21, 1.02E+01, 1.91E+00
0.978, 3.39, 1.08E+01, 2.02E+00
0.985, 3.67, 1.16E+01, 2.18E+00
0.991, 3.94, 1.25E+01, 2.34E+00

File: Carbopack_F_Ar_87K_convert_data.txt
# Carbopack F Graphitized Carbon Black, Ar, 87 K
# L. Gardner et al., J. Phys. Chem. B 105 (2001).
# V(alpha-s=1) = V(P/P0=0.4) = V0.4 = 3.108 [cm3(STP)/g], S(BET) = 6.01 [m2/g]
# S(alpha-s)[m2/g] = slope[cm3(STP)/g] * 6.01/3.108 = slope[cm3(STP)/g] * 1.933719
# [pyGAPS] BET surface area: a = 6 m2/g, The BET constant is: C = 859, Amount for a monolayer: n = 7e-05 mol/g
#   Amount for a monolayer: n = 7e-05 / (1/1000/22.414) = 7e-05 / 4.461e-5 = 1.569155 [cm3(STP)/g]
# graphitized carbon black (Carbopack F)
# P/P0, alpha-s, V[cm3(STP)/g], t[nm]
1.28E-04, 9.17E-03, 2.85E-02, 6.10E-03
2.49E-04, 0.0184, 5.72E-02, 1.22E-02
3.54E-04, 0.0274, 8.52E-02, 1.82E-02
4.50E-04, 0.0364, 1.13E-01, 2.42E-02
5.38E-04, 0.0456, 1.42E-01, 3.03E-02
6.20E-04, 0.0548, 1.70E-01, 3.65E-02
6.95E-04, 0.0641, 1.99E-01, 4.27E-02
7.65E-04, 0.0735, 2.28E-01, 4.89E-02
8.30E-04, 0.0829, 2.58E-01, 5.52E-02
8.91E-04, 0.0924, 2.87E-01, 6.15E-02
9.49E-04, 0.102, 3.17E-01, 6.79E-02
1.00E-03, 0.111, 3.45E-01, 7.39E-02
1.06E-03, 0.121, 3.76E-01, 8.05E-02
1.11E-03, 0.131, 4.07E-01, 8.72E-02
1.16E-03, 0.14, 4.35E-01, 9.32E-02
1.20E-03, 0.15, 4.66E-01, 9.98E-02
1.25E-03, 0.16, 4.97E-01, 1.06E-01
1.30E-03, 0.169, 5.25E-01, 1.12E-01
1.34E-03, 0.179, 5.56E-01, 1.19E-01
1.39E-03, 0.188, 5.84E-01, 1.25E-01
1.43E-03, 0.198, 6.15E-01, 1.32E-01
1.48E-03, 0.208, 6.46E-01, 1.38E-01
1.52E-03, 0.217, 6.74E-01, 1.44E-01
1.57E-03, 0.227, 7.06E-01, 1.51E-01
1.62E-03, 0.237, 7.37E-01, 1.58E-01
1.67E-03, 0.246, 7.65E-01, 1.64E-01
1.72E-03, 0.256, 7.96E-01, 1.70E-01
1.77E-03, 0.265, 8.24E-01, 1.76E-01
1.83E-03, 0.275, 8.55E-01, 1.83E-01
1.89E-03, 0.284, 8.83E-01, 1.89E-01
1.96E-03, 0.294, 9.14E-01, 1.96E-01
2.03E-03, 0.303, 9.42E-01, 2.02E-01
2.10E-03, 0.312, 9.70E-01, 2.08E-01
2.18E-03, 0.322, 1.00E+00, 2.14E-01
2.27E-03, 0.331, 1.03E+00, 2.20E-01
2.36E-03, 0.34, 1.06E+00, 2.26E-01
2.47E-03, 0.349, 1.08E+00, 2.32E-01
2.58E-03, 0.358, 1.11E+00, 2.38E-01
2.71E-03, 0.366, 1.14E+00, 2.44E-01
2.86E-03, 0.375, 1.17E+00, 2.50E-01
3.02E-03, 0.383, 1.19E+00, 2.55E-01
3.19E-03, 0.391, 1.22E+00, 2.60E-01
3.39E-03, 0.399, 1.24E+00, 2.66E-01
3.62E-03, 0.406, 1.26E+00, 2.70E-01
3.86E-03, 0.414, 1.29E+00, 2.76E-01
4.13E-03, 0.42, 1.31E+00, 2.80E-01
4.44E-03, 0.427, 1.33E+00, 2.84E-01
4.81E-03, 0.434, 1.35E+00, 2.89E-01
5.23E-03, 0.441, 1.37E+00, 2.93E-01
5.69E-03, 0.447, 1.39E+00, 2.97E-01
6.20E-03, 0.452, 1.40E+00, 3.01E-01
6.75E-03, 0.458, 1.42E+00, 3.05E-01
7.55E-03, 0.465, 1.45E+00, 3.09E-01
8.13E-03, 0.469, 1.46E+00, 3.12E-01
8.75E-03, 0.473, 1.47E+00, 3.15E-01
9.40E-03, 0.477, 1.48E+00, 3.17E-01
0.01, 0.48, 1.49E+00, 3.19E-01
0.0113, 0.486, 1.51E+00, 3.23E-01
0.0125, 0.491, 1.53E+00, 3.27E-01
0.015, 0.498, 1.55E+00, 3.31E-01
0.0175, 0.505, 1.57E+00, 3.36E-01
0.0202, 0.511, 1.59E+00, 3.40E-01
0.025, 0.518, 1.61E+00, 3.45E-01
0.0301, 0.525, 1.63E+00, 3.49E-01
0.0351, 0.531, 1.65E+00, 3.53E-01
0.0401, 0.536, 1.67E+00, 3.57E-01
0.0452, 0.541, 1.68E+00, 3.60E-01
0.0501, 0.545, 1.69E+00, 3.63E-01
0.0573, 0.551, 1.71E+00, 3.67E-01
0.0695, 0.56, 1.74E+00, 3.73E-01
0.0793, 0.567, 1.76E+00, 3.77E-01
0.089, 0.573, 1.78E+00, 3.81E-01
0.0987, 0.58, 1.80E+00, 3.86E-01
0.117, 0.591, 1.84E+00, 3.93E-01
0.137, 0.602, 1.87E+00, 4.01E-01
0.156, 0.616, 1.91E+00, 4.10E-01
0.176, 0.633, 1.97E+00, 4.21E-01
0.195, 0.649, 2.02E+00, 4.32E-01
0.215, 0.671, 2.09E+00, 4.47E-01
0.235, 0.694, 2.16E+00, 4.62E-01
0.256, 0.719, 2.23E+00, 4.79E-01
0.276, 0.746, 2.32E+00, 4.96E-01
0.297, 0.778, 2.42E+00, 5.18E-01
0.317, 0.817, 2.54E+00, 5.44E-01
0.337, 0.861, 2.68E+00, 5.73E-01
0.36, 0.914, 2.84E+00, 6.08E-01
0.381, 0.959, 2.98E+00, 6.38E-01
0.4, 1, 3.11E+00, 6.66E-01
0.42, 1.04, 3.23E+00, 6.92E-01
0.44, 1.07, 3.33E+00, 7.12E-01
0.46, 1.1, 3.42E+00, 7.32E-01
0.48, 1.13, 3.51E+00, 7.52E-01
0.5, 1.15, 3.57E+00, 7.65E-01
0.52, 1.18, 3.67E+00, 7.85E-01
0.54, 1.21, 3.76E+00, 8.05E-01
0.56, 1.23, 3.82E+00, 8.19E-01
0.58, 1.26, 3.92E+00, 8.39E-01
0.6, 1.3, 4.04E+00, 8.65E-01
0.62, 1.34, 4.16E+00, 8.92E-01
0.64, 1.38, 4.29E+00, 9.18E-01
0.66, 1.44, 4.48E+00, 9.58E-01
0.68, 1.5, 4.66E+00, 9.98E-01
0.7, 1.57, 4.88E+00, 1.04E+00
0.72, 1.65, 5.13E+00, 1.10E+00
0.74, 1.72, 5.35E+00, 1.14E+00
0.76, 1.78, 5.53E+00, 1.18E+00
0.78, 1.84, 5.72E+00, 1.22E+00
0.8, 1.91, 5.94E+00, 1.27E+00
0.819, 1.98, 6.15E+00, 1.32E+00
0.84, 2.07, 6.43E+00, 1.38E+00
0.86, 2.17, 6.74E+00, 1.44E+00
0.879, 2.3, 7.15E+00, 1.53E+00
0.899, 2.45, 7.61E+00, 1.63E+00
0.919, 2.63, 8.17E+00, 1.75E+00
0.94, 2.9, 9.01E+00, 1.93E+00
0.954, 3.27, 1.02E+01, 2.18E+00
0.964, 3.63, 1.13E+01, 2.42E+00
0.975, 4.22, 1.31E+01, 2.81E+00
0.984, 5.09, 1.58E+01, 3.39E+00
0.988, 5.9, 1.83E+01, 3.93E+00

File: Non-Graphitized_carbon_black_sample_NGCB_N2_77K_convert_data.txt
# Non-Graphitized carbon black (NGCB), N2, 77.4 K
# K. Nakai et al., DOI:10.1016/j.jcis.2010.08.005
# V(alpha-s=1) = V(P/P0=0.4) = V0.4 = 6.96 [cm3(STP)/g], V(theta=1)=4.34 [cm3(STP)/g], S(BET) = 18.9 [m2/g]
# S(alpha-s)[m2/g] = slope[cm3(STP)/g] * 18.9/6.96 = slope[cm3(STP)/g] * 2.715517
# [pyGASP] BET surface area: a = 19 m2/g, The BET constant is: C = 138, Amount for a monolayer: n = 0.00019 mol/g
#   Amount for a monolayer: n = 0.00019 / (1/1000/22.414) = 0.00019 / 4.461e-5 = 4.25913 [cm3(STP)/g]
# n/(molecules/nm2) = 0.602 * Gamma/(micro mol/m2)
# P/P0, alpha-s, Gamma(micro mol/m2), V[cm3(STP)/g], t[nm]
0.00000005, 0.0022, 0.035, 0.015312, 1.27266
0.00000007, 0.0034, 0.057, 0.023664, 1.96684
0.0000001, 0.005, 0.083, 0.0348, 2.89242
0.00000015, 0.0066, 0.109, 0.045936, 3.81799
0.0000002, 0.0076, 0.125, 0.052896, 4.39648
0.00000025, 0.0085, 0.14, 0.05916, 4.91711
0.0000003, 0.0093, 0.154, 0.064728, 5.3799
0.0000004, 0.0111, 0.182, 0.077256, 6.42117
0.0000005, 0.0126, 0.208, 0.087696, 7.28889
0.000001, 0.0184, 0.303, 0.128064, 10.6441
0.0000013, 0.021, 0.345, 0.14616, 12.1482
0.000002, 0.0256, 0.421, 0.178176, 14.8092
0.000003, 0.0309, 0.508, 0.215064, 17.8751
0.000004, 0.0359, 0.591, 0.249864, 20.7676
0.000005, 0.0402, 0.662, 0.279792, 23.255
0.000006, 0.0445, 0.733, 0.30972, 25.7425
0.000008, 0.0503, 0.828, 0.350088, 29.0977
0.00001, 0.056, 0.922, 0.38976, 32.3951
0.000013, 0.0618, 1.017, 0.430128, 35.7503
0.00002, 0.0733, 1.206, 0.510168, 42.4029
0.00003, 0.0862, 1.419, 0.599952, 49.8653
0.00004, 0.0977, 1.608, 0.679992, 56.5179
0.00006, 0.115, 1.89, 0.8004, 66.5256
0.00008, 0.129, 2.13, 0.89784, 74.6244
0.0001, 0.144, 2.36, 1.00224, 83.3017
0.00013, 0.161, 2.65, 1.12056, 93.1359
0.0002, 0.19, 3.12, 1.3224, 109.912
0.0003, 0.223, 3.66, 1.55208, 129.002
0.0004, 0.25, 4.11, 1.74, 144.621
0.0005, 0.27, 4.45, 1.8792, 156.191
0.0006, 0.283, 4.66, 1.96968, 163.711
0.0008, 0.309, 5.08, 2.15064, 178.751
0.001, 0.33, 5.44, 2.2968, 190.9
0.0013, 0.352, 5.79, 2.44992, 203.626
0.002, 0.382, 6.29, 2.65872, 220.981
0.003, 0.409, 6.74, 2.84664, 236.6
0.005, 0.441, 7.26, 3.06936, 255.111
0.006, 0.453, 7.45, 3.15288, 262.053
0.008, 0.471, 7.76, 3.27816, 272.466
0.01, 0.484, 7.97, 3.36864, 279.986
0.013, 0.499, 8.2, 3.47304, 288.663
0.02, 0.522, 8.58, 3.63312, 301.968
0.03, 0.546, 8.99, 3.80016, 315.852
0.04, 0.568, 9.34, 3.95328, 328.579
0.05, 0.582, 9.58, 4.05072, 336.678
0.06, 0.596, 9.81, 4.14816, 344.776
0.08, 0.621, 10.21, 4.32216, 359.238
0.1, 0.644, 10.59, 4.48224, 372.544
0.12, 0.668, 10.99, 4.64928, 386.427
0.14, 0.687, 11.3, 4.78152, 397.4183
0.16, 0.711, 11.7, 4.94856, 411.302
0.18, 0.733, 12.06, 5.10168, 424.029
0.2, 0.754, 12.41, 5.24784, 436.177
0.22, 0.78, 12.84, 5.4288, 451.217
0.24, 0.802, 13.19, 5.58192, 463.944
0.26, 0.825, 13.57, 5.742, 477.249
0.28, 0.848, 13.95, 5.90208, 490.554
0.3, 0.874, 14.38, 6.08304, 505.595
0.32, 0.899, 14.8, 6.25704, 520.057
0.34, 0.922, 15.18, 6.41712, 533.362
0.36, 0.948, 15.61, 6.59808, 548.403
0.38, 0.974, 16.03, 6.77904, 563.443
0.4, 1, 16.46, 6.96, 578.484
0.42, 1.02, 16.8, 7.0992, 590.053
0.44, 1.05, 17.3, 7.308, 607.408
0.46, 1.07, 17.7, 7.4472, 618.978
0.48, 1.1, 18.1, 7.656, 636.332
0.5, 1.12, 18.5, 7.7952, 647.902
0.52, 1.15, 18.9, 8.004, 665.256
0.54, 1.18, 19.4, 8.2128, 682.611
0.56, 1.21, 19.9, 8.4216, 699.965
0.58, 1.24, 20.4, 8.6304, 717.32
0.6, 1.27, 20.9, 8.8392, 734.674
0.62, 1.3, 21.4, 9.048, 752.029
0.64, 1.34, 22, 9.3264, 775.168
0.66, 1.36, 22.5, 9.4656, 786.738
0.68, 1.4, 23.1, 9.744, 809.877
0.7, 1.45, 23.9, 10.092, 838.801
0.72, 1.49, 24.6, 10.3704, 861.941
0.74, 1.54, 25.3, 10.7184, 890.865
0.76, 1.59, 26.2, 11.0664, 919.789
0.78, 1.65, 27.2, 11.484, 954.498
0.8, 1.71, 28.1, 11.9016, 989.207
0.82, 1.78, 29.3, 12.3888, 1029.7
0.84, 1.87, 30.7, 13.0152, 1081.76
0.85, 1.91, 31.4, 13.2936, 1104.9
0.86, 1.97, 32.4, 13.7112, 1139.61
0.87, 2.04, 33.6, 14.1984, 1180.11
0.88, 2.11, 34.8, 14.6856, 1220.6
0.9, 2.27, 37.4, 15.7992, 1313.16